 mg, Z=12, (Energy (eV),f1,f2)
0.500000	0.116976	0.145925
0.507932	0.116835	0.148961
0.515990	0.116533	0.152059
0.524176	0.116533	0.155223
0.532492	0.116226	0.158452
0.540939	0.116155	0.161748
0.549521	0.116161	0.165113
0.558238	0.116106	0.168547
0.567095	0.116343	0.172054
0.576091	0.116663	0.175582
0.585230	0.116876	0.178809
0.594515	0.117113	0.182096
0.603946	0.117271	0.185442
0.613527	0.117366	0.188851
0.623260	0.117460	0.192321
0.633148	0.117471	0.195856
0.643192	0.117577	0.199456
0.653396	0.117624	0.203121
0.663762	0.117636	0.206855
0.674292	0.117753	0.210656
0.684989	0.117747	0.214528
0.695856	0.117947	0.218471
0.706895	0.118014	0.222486
0.718109	0.118147	0.226575
0.729502	0.118240	0.230739
0.741075	0.118402	0.234980
0.752831	0.118558	0.239298
0.764775	0.118755	0.243696
0.776907	0.118974	0.248175
0.789232	0.119179	0.252736
0.801753	0.119449	0.257381
0.814472	0.119694	0.262112
0.827393	0.120034	0.266929
0.840519	0.120361	0.271835
0.853853	0.120758	0.276831
0.867399	0.121163	0.281918
0.881159	0.121654	0.287100
0.895138	0.122134	0.292376
0.909339	0.122709	0.297750
0.923765	0.123290	0.303222
0.938420	0.123977	0.308795
0.953307	0.124719	0.314470
0.968431	0.125520	0.320250
0.983794	0.126703	0.326135
0.999401	0.128066	0.332129
1.01526	0.129452	0.337611
1.03136	0.130724	0.343158
1.04772	0.131784	0.348796
1.06435	0.132868	0.354527
1.08123	0.133939	0.360352
1.09838	0.135045	0.366272
1.11581	0.136126	0.372290
1.13351	0.137247	0.378407
1.15149	0.138361	0.384624
1.16976	0.139542	0.390943
1.18832	0.140735	0.397366
1.20717	0.141939	0.403895
1.22632	0.143174	0.410531
1.24577	0.144458	0.417276
1.26554	0.145790	0.424132
1.28561	0.147143	0.431100
1.30601	0.148548	0.438183
1.32673	0.149991	0.445382
1.34778	0.151505	0.452700
1.36916	0.153043	0.460138
1.39088	0.154641	0.467698
1.41294	0.156288	0.475382
1.43536	0.158013	0.483193
1.45813	0.159800	0.491132
1.48126	0.161627	0.499201
1.50476	0.163528	0.507403
1.52863	0.165508	0.515739
1.55288	0.167566	0.524213
1.57752	0.169696	0.532826
1.60254	0.171889	0.541580
1.62797	0.174186	0.550478
1.65379	0.176578	0.559523
1.68003	0.179058	0.568716
1.70668	0.181618	0.578059
1.73376	0.184292	0.587557
1.76126	0.187088	0.597210
1.78920	0.190006	0.607023
1.81759	0.193021	0.616996
1.84642	0.196168	0.627133
1.87572	0.199479	0.637437
1.90547	0.202946	0.647910
1.93570	0.206558	0.658555
1.96641	0.210354	0.669375
1.99761	0.214373	0.680373
2.02930	0.218672	0.691552
2.06149	0.223394	0.702914
2.09419	0.228378	0.714322
2.12742	0.233490	0.724938
2.16117	0.238671	0.735712
2.19545	0.243800	0.746646
2.23028	0.248747	0.757743
2.26566	0.253819	0.769004
2.30160	0.258998	0.780433
2.33812	0.264293	0.792032
2.37521	0.269690	0.803803
2.41289	0.275201	0.815749
2.45117	0.280859	0.827873
2.49006	0.286678	0.840176
2.52956	0.292651	0.852663
2.56969	0.298759	0.865335
2.61046	0.305047	0.878195
2.65187	0.311532	0.891247
2.69394	0.318216	0.904493
2.73668	0.325074	0.917936
2.78009	0.332135	0.931577
2.82419	0.339434	0.945422
2.86900	0.346977	0.959473
2.91451	0.354751	0.973733
2.96075	0.362755	0.988205
3.00772	0.371040	1.00289
3.05543	0.379628	1.01780
3.10391	0.388519	1.03292
3.15315	0.397693	1.04827
3.20317	0.407210	1.06385
3.25399	0.417110	1.07966
3.30561	0.427414	1.09571
3.35805	0.438118	1.11199
3.41132	0.449284	1.12852
3.46544	0.461008	1.14529
3.52042	0.473411	1.16231
3.57627	0.486835	1.17959
3.63300	0.501054	1.19697
3.69064	0.515666	1.21193
3.74918	0.530448	1.22708
3.80866	0.545040	1.24242
3.86908	0.559192	1.25795
3.93046	0.573682	1.27367
3.99282	0.588447	1.28959
4.05616	0.603514	1.30571
4.12051	0.618883	1.32203
4.18588	0.634589	1.33855
4.25228	0.650693	1.35528
4.31974	0.667225	1.37222
4.38827	0.684196	1.38937
4.45789	0.701606	1.40673
4.52861	0.719528	1.42432
4.60045	0.738008	1.44212
4.67344	0.757074	1.46014
4.74758	0.776726	1.47839
4.82289	0.797038	1.49687
4.89941	0.818089	1.51558
4.97713	0.839916	1.53452
5.05609	0.862498	1.55370
5.13630	0.887179	1.57312
5.21778	0.913055	1.59279
5.30056	0.939670	1.61063
5.38465	0.966594	1.62735
5.47007	0.993416	1.64423
5.55685	1.02060	1.66129
5.64501	1.04835	1.67853
5.73456	1.07678	1.69595
5.82553	1.10594	1.71354
5.91795	1.13593	1.73132
6.01184	1.16686	1.74929
6.10721	1.19884	1.76744
6.20410	1.23210	1.78578
6.30252	1.26515	1.80431
6.40250	1.29928	1.82303
6.50407	1.33541	1.84402
6.60726	1.37428	1.86712
6.71208	1.41834	1.89052
6.81856	1.46688	1.91288
6.92673	1.51807	1.92912
7.03662	1.57054	1.94550
7.14825	1.62338	1.96202
7.26165	1.68926	1.97869
7.37685	1.75889	1.98692
7.49388	1.82774	1.98261
7.61276	1.88830	1.97831
7.73353	1.94660	1.97401
7.85622	2.00624	1.96973
7.98085	2.06775	1.96546
8.10746	2.13303	1.96119
8.23608	2.20378	1.95693
8.36674	2.27449	1.93823
8.49947	2.34577	1.91649
8.63431	2.41683	1.89500
8.77129	2.48553	1.87374
8.91044	2.57198	1.85272
9.05180	2.66471	1.83194
9.19540	2.75881	1.78295
9.34127	2.84890	1.72133
9.48947	2.94694	1.65063
9.64001	3.04434	1.55337
9.78000	3.12450	1.46932
9.88000	3.16859	1.40788
10.0367	3.25471	1.27556
10.1000	3.29073	1.22629
10.2000	3.34875	1.13533
10.3000	3.34953	0.986677
10.3000	3.34953	0.944770
10.4634	3.30087	0.814767
10.5000	3.29388	0.745742
10.5000	3.29388	0.705354
10.6666	3.19434	0.611967
10.7000	3.18406	0.571897
10.7000	3.18406	0.549754
10.8697	3.08399	0.469489
10.9000	3.06576	0.456586
11.0000	3.01472	0.427164
11.1745	2.92733	0.370427
11.3518	2.84524	0.350648
11.5319	2.79604	0.318310
11.7148	2.73238	0.296949
11.8000	2.71418	0.291446
11.9000	2.69209	0.278656
12.0000	2.66339	0.258402
12.1904	2.61317	0.250332
12.3838	2.57578	0.242515
12.5802	2.54094	0.228469
12.7798	2.50078	0.218505
12.9825	2.46734	0.214617
13.1885	2.43939	0.210799
13.3977	2.41322	0.202866
13.6103	2.38529	0.195155
13.8262	2.35786	0.190772
14.0455	2.33140	0.186486
14.2683	2.30682	0.184550
14.4947	2.28438	0.183367
14.7247	2.26325	0.182192
14.9582	2.24307	0.181024
15.1955	2.22352	0.179863
15.4366	2.20451	0.178949
15.6815	2.18616	0.179384
15.9303	2.16849	0.179820
16.1830	2.15166	0.180257
16.4397	2.13533	0.180695
16.7005	2.11948	0.182086
16.9655	2.10421	0.183781
17.2346	2.08962	0.185491
17.5080	2.07588	0.187217
17.7858	2.06254	0.188959
18.0679	2.04964	0.190717
18.3546	2.03717	0.192492
18.6458	2.02520	0.194283
18.9416	2.01387	0.196091
19.2421	2.00280	0.196681
19.5473	1.99173	0.196973
19.8574	1.98030	0.197266
20.1724	1.96854	0.197559
20.4925	1.95677	0.197852
20.8176	1.94495	0.198146
21.1478	1.93305	0.198440
21.4833	1.92120	0.198735
21.8241	1.91007	0.199030
22.1704	1.89890	0.198931
22.5221	1.88730	0.197280
22.8794	1.87469	0.195643
23.2423	1.86140	0.194019
23.6111	1.84764	0.192409
23.9856	1.83347	0.190812
24.3661	1.81909	0.189228
24.7527	1.80436	0.187097
25.1454	1.78853	0.184137
25.5443	1.77181	0.181223
25.9495	1.75417	0.178356
26.3612	1.73546	0.175534
26.7794	1.71581	0.172757
27.2042	1.69511	0.170024
27.6358	1.67321	0.167334
28.0742	1.64931	0.165041
28.5196	1.62519	0.164522
28.9721	1.60081	0.164004
29.4317	1.57576	0.163489
29.8986	1.54988	0.162974
30.3729	1.52304	0.162462
30.8547	1.49514	0.161951
31.3442	1.46609	0.161442
31.8415	1.43577	0.160934
32.3466	1.40409	0.160428
32.8598	1.37091	0.159923
33.3811	1.33611	0.159420
33.9107	1.29952	0.158919
34.4486	1.26078	0.158526
34.9951	1.22023	0.158819
35.5503	1.17789	0.159112
36.1143	1.13342	0.159405
36.6872	1.08656	0.159699
37.2692	1.03716	0.159993
37.8605	0.985223	0.160289
38.4611	0.930168	0.160584
39.0712	0.871612	0.160880
39.6911	0.809540	0.158664
40.3208	0.741669	0.156244
40.9604	0.667795	0.153860
41.6102	0.587407	0.151513
42.2703	0.499598	0.149201
42.9409	0.403295	0.147144
43.6221	0.297105	0.145157
44.3142	0.178859	0.143196
45.0172	0.455541E-01	0.141261
45.7313	-0.107287	0.139717
46.4568	-0.285839	0.138555
47.1938	-0.502483	0.137403
47.9425	-0.782572	0.136261
48.1250	-0.865813	0.135986
48.6250	-1.14658	0.135518
49.1250	-1.58527	0.142785
49.2500	-1.75980	0.146448
49.3750	-2.00215	0.157885
49.4000	-2.06455	0.160274
49.6000	-2.73129	0.755467
49.6250	-2.69545	1.03535
49.7500	-2.36792	1.41929
49.8750	-2.20807	1.50928
50.0000	-2.20797	1.52981
50.1000	-2.18737	2.02454
50.3000	-1.86281	1.99775
50.7000	-1.34521	1.77907
50.9000	-1.33492	1.73052
51.1000	-1.40116	1.72876
51.5000	-1.41065	1.90441
51.7000	-1.38790	1.96258
52.5000	-1.25572	1.99203
53.3329	-1.30478	2.05673
53.5000	-1.32241	2.06984
54.1000	-1.39003	2.13993
54.9583	-1.49178	2.41820
55.8301	-1.43552	2.60886
56.7158	-1.38329	2.73104
57.6156	-1.43664	2.85894
58.5296	-1.51362	3.01173
59.4581	-1.59461	3.19546
60.4014	-1.67701	3.39039
61.3596	-1.76716	3.64687
62.3330	-1.84091	3.94736
63.3219	-1.88244	4.27261
64.3265	-1.89358	4.62466
65.3470	-1.87330	5.00571
66.3836	-1.82399	5.43219
67.4368	-1.70021	5.91258
68.5066	-1.46811	6.43546
69.5934	-1.03007	6.89618
70.6975	-0.423291	7.25149
71.8190	0.244759	7.42230
72.9584	0.969362	7.29863
74.1158	1.36724	6.91463
75.2916	1.53653	6.50887
76.4860	1.38340	6.20278
77.6994	1.20333	6.18923
78.9321	1.06754	6.32605
80.1843	0.993543	6.51664
81.4563	1.05545	6.71298
82.7486	1.13870	6.91523
84.0613	1.24848	7.12358
85.3949	1.38811	7.33819
86.7496	1.57057	7.55928
88.1258	1.72799	7.78704
88.4000	1.76807	7.83278
89.4000	2.11967	8.08663
90.8183	2.40937	8.14048
92.2590	2.70741	8.19470
93.7227	2.99133	8.24928
95.2095	3.28366	8.30421
96.7199	3.63103	8.29579
98.2543	3.98458	8.16648
99.4000	4.27008	8.07253
99.9000	4.07578	8.18816
101.485	4.53777	8.02324
103.095	4.96019	7.86165
104.730	5.00251	7.70331
106.392	5.10659	7.54816
108.080	5.18107	7.39612
109.794	5.08690	7.25470
111.500	5.53071	7.24546
112.000	5.18961	6.96742
113.777	5.20548	7.01582
115.582	5.13167	7.06455
117.415	5.11054	7.17584
119.278	5.14139	7.34062
121.170	5.25975	7.50919
123.093	5.50540	7.68162
125.045	5.80105	7.83236
127.029	6.11439	7.80502
129.044	6.41231	7.77777
131.092	6.78764	7.66375
132.000	6.79057	7.60012
132.400	7.13719	7.40672
134.500	6.85563	7.36095
136.634	6.56993	7.31546
138.802	6.99118	7.15929
141.004	7.03475	7.02010
143.241	7.07781	7.02133
145.513	7.15970	7.02255
147.822	7.25653	7.02377
150.167	7.36241	7.02499
152.549	7.47567	7.02621
154.969	7.60106	7.03887
157.427	7.74082	7.05288
159.925	7.90177	7.06692
162.462	8.10511	7.08098
165.039	8.32287	7.05648
167.658	8.53580	6.91587
170.317	8.72921	6.77805
173.019	8.87321	6.64299
175.764	8.97888	6.51061
178.552	9.07053	6.38212
181.385	9.15283	6.27735
184.263	9.22552	6.17430
187.186	9.39002	6.07295
188.000	9.44732	6.04529
189.000	9.36287	5.90933
191.998	9.41045	5.84710
195.044	9.45313	5.78553
198.138	9.51028	5.72460
201.282	9.57443	5.66431
204.475	9.64474	5.60467
207.719	9.72940	5.54564
211.014	9.81848	5.48724
214.362	9.90795	5.41222
217.762	9.99601	5.31334
221.217	10.0707	5.21626
224.727	10.1371	5.12097
228.292	10.1980	5.02741
231.913	10.2547	4.93556
235.592	10.3078	4.84538
239.330	10.3579	4.75686
243.127	10.4054	4.66996
246.984	10.4506	4.58463
250.902	10.4936	4.50087
254.882	10.5349	4.41864
258.926	10.5746	4.33791
263.034	10.6129	4.25866
267.206	10.6499	4.18086
271.445	10.6874	4.10447
275.752	10.7250	4.02949
280.126	10.7626	3.95587
284.570	10.8019	3.88143
289.085	10.8424	3.79391
293.671	10.8731	3.70835
298.330	10.8994	3.62473
303.063	10.9223	3.54299
307.870	10.9425	3.46310
312.755	10.9605	3.38500
317.716	10.9764	3.30867
322.757	10.9906	3.23406
327.877	11.0031	3.16113
333.078	11.0141	3.08985
338.362	11.0238	3.02017
343.730	11.0323	2.95207
349.183	11.0396	2.88550
354.723	11.0458	2.82043
360.350	11.0510	2.75683
366.067	11.0554	2.69466
371.874	11.0589	2.63390
377.774	11.0617	2.57450
383.767	11.0638	2.51645
389.855	11.0652	2.45970
396.040	11.0660	2.40424
402.323	11.0664	2.35002
408.705	11.0663	2.29703
415.189	11.0659	2.24523
421.776	11.0653	2.19460
428.467	11.0649	2.14511
435.264	11.0653	2.09674
442.169	11.0650	2.04702
449.184	11.0638	1.99566
456.310	11.0615	1.94558
463.549	11.0570	1.89676
470.903	11.0513	1.84917
478.373	11.0449	1.80277
485.962	11.0379	1.75754
493.672	11.0302	1.71344
501.503	11.0221	1.67044
509.459	11.0136	1.62853
517.542	11.0047	1.58767
525.752	10.9956	1.54783
534.093	10.9867	1.50899
542.566	10.9808	1.47057
551.173	10.9735	1.42542
559.917	10.9581	1.38239
568.800	10.9412	1.34676
577.823	10.9261	1.31205
586.990	10.9113	1.27823
596.302	10.8965	1.24529
605.762	10.8815	1.21319
615.372	10.8663	1.18193
625.134	10.8509	1.15146
635.052	10.8353	1.12179
645.126	10.8194	1.09287
655.361	10.8033	1.06466
665.758	10.7869	1.03711
676.319	10.7702	1.01027
687.049	10.7533	0.984124
697.948	10.7369	0.958655
709.021	10.7209	0.933525
720.269	10.7041	0.905954
731.695	10.6860	0.879195
743.303	10.6656	0.853228
755.095	10.6448	0.828028
767.074	10.6229	0.802844
779.243	10.5993	0.777737
791.605	10.5716	0.753414
804.163	10.5450	0.735497
816.921	10.5197	0.718703
829.881	10.4953	0.702292
843.046	10.4735	0.686256
856.420	10.4532	0.665272
870.007	10.4271	0.639352
883.809	10.3979	0.614443
897.830	10.3656	0.590503
912.073	10.3291	0.569538
926.543	10.2916	0.549676
941.242	10.2522	0.530506
956.174	10.2107	0.512005
971.343	10.1665	0.494149
986.752	10.1208	0.476915
1002.41	10.0722	0.459769
1018.31	10.0198	0.440497
1034.46	9.96207	0.422032
1050.87	9.89777	0.404342
1067.55	9.82802	0.387393
1084.48	9.75132	0.371155
1101.69	9.66632	0.355372
1119.16	9.57146	0.338265
1136.92	9.46316	0.321983
1154.95	9.33863	0.306484
1173.28	9.19338	0.291731
1191.89	9.02020	0.277688
1210.80	8.80835	0.264949
1230.01	8.53830	0.253248
1249.52	8.17049	0.242063
1269.34	7.60707	0.231373
1289.48	6.45363	0.221154
1302.50	2.06794	0.214869
1302.90	-0.106704	0.214680
1303.10	-0.104074	4.46654
1304.	3.02135	4.46202
1324.69	7.29020	4.36019
1345.70	8.27349	4.26015
1367.05	8.87167	4.16239
1388.74	9.30474	4.06689
1410.77	9.64429	3.97354
1433.15	9.92299	3.88233
1455.89	10.1586	3.79323
1478.98	10.3620	3.70630
1502.45	10.5403	3.62146
1526.28	10.6986	3.53874
1550.49	10.8405	3.45789
1575.09	10.9686	3.37889
1600.08	11.0850	3.30171
1625.46	11.1913	3.22630
1651.25	11.2890	3.15263
1677.45	11.3791	3.08062
1704.06	11.4629	3.01026
1731.09	11.5429	2.94137
1758.55	11.6171	2.87016
1786.45	11.6843	2.80005
1814.79	11.7455	2.73108
1843.58	11.8017	2.66378
1872.83	11.8537	2.59815
1902.54	11.9018	2.53413
1932.72	11.9465	2.47172
1963.38	11.9881	2.41082
1994.53	12.0260	2.35138
2000.	12.0324	2.34119
2026.	12.0629	2.29521
2052.	12.0918	2.24797
2079.	12.1190	2.20034
2106.	12.1439	2.15410
2134.	12.1678	2.10767
2161.	12.1890	2.06419
2190.	12.2101	2.01890
2218.	12.2288	1.97656
2247.	12.2467	1.93400
2277.	12.2638	1.89130
2306.	12.2789	1.85132
2337.	12.2938	1.80993
2367.	12.3070	1.77109
2398.	12.3194	1.73223
2429.	12.3309	1.69472
2461.	12.3417	1.65705
2493.	12.3514	1.62057
2526.	12.3605	1.58424
2559.	12.3688	1.54907
2592.	12.3762	1.51499
2626.	12.3831	1.48110
2660.	12.3893	1.44823
2695.	12.3950	1.41550
2730.	12.4000	1.38383
2766.	12.4045	1.35233
2802.	12.4084	1.32186
2839.	12.4119	1.29158
2876.	12.4148	1.26231
2914.	12.4173	1.23324
2952.	12.4194	1.20514
2990.	12.4210	1.17798
3029.	12.4223	1.15102
3069.	12.4232	1.12430
3109.	12.4238	1.09848
3150.	12.4240	1.07291
3191.	12.4240	1.04819
3232.	12.4236	1.02432
3275.	12.4229	1.00012
3317.	12.4220	0.977287
3361.	12.4209	0.954199
3405.	12.4195	0.931879
3449.	12.4179	0.910333
3494.	12.4160	0.889051
3540.	12.4140	0.868040
3586.	12.4118	0.847753
3633.	12.4094	0.827722
3680.	12.4069	0.808395
3729.	12.4042	0.788961
3777.	12.4014	0.770559
3827.	12.3984	0.752067
3877.	12.3953	0.734236
3927.	12.3922	0.717008
3979.	12.3888	0.699726
4031.	12.3854	0.683049
4083.	12.3820	0.666932
4137.	12.3783	0.650806
4191.	12.3747	0.635238
4245.	12.3710	0.620227
4301.	12.3672	0.605206
4357.	12.3633	0.590712
4414.	12.3594	0.576463
4472.	12.3554	0.562495
4530.	12.3515	0.549014
4589.	12.3474	0.535807
4649.	12.3434	0.522834
4710.	12.3393	0.510106
4771.	12.3352	0.497863
4834.	12.3310	0.485646
4897.	12.3269	0.473872
4961.	12.3227	0.462327
5026.	12.3185	0.451024
5091.	12.3144	0.440154
5158.	12.3102	0.429323
5225.	12.3060	0.418873
5294.	12.3018	0.408534
5363.	12.2976	0.398525
5433.	12.2934	0.388758
5504.	12.2893	0.379214
5576.	12.2851	0.369874
5649.	12.2810	0.360784
5722.	12.2769	0.351961
5797.	12.2728	0.343281
5873.	12.2687	0.334769
5950.	12.2647	0.326469
6027.	12.2607	0.318471
6106.	12.2567	0.310563
6186.	12.2527	0.302844
6267.	12.2487	0.295316
6349.	12.2448	0.287973
6432.	12.2409	0.280811
6516.	12.2370	0.273831
6601.	12.2332	0.267020
6687.	12.2294	0.260383
6774.	12.2257	0.253915
6863.	12.2220	0.247543
6952.	12.2183	0.241401
7043.	12.2146	0.235350
7135.	12.2110	0.229456
7229.	12.2074	0.223661
7323.	12.2039	0.218075
7419.	12.2004	0.212586
7516.	12.1969	0.207239
7614.	12.1935	0.202038
7713.	12.1901	0.196975
7814.	12.1868	0.192004
7916.	12.1835	0.187167
8019.	12.1802	0.182460
8124.	12.1770	0.177843
8230.	12.1738	0.173351
8338.	12.1706	0.168946
8447.	12.1675	0.164665
8557.	12.1645	0.160508
8669.	12.1614	0.156429
8782.	12.1585	0.152468
8897.	12.1555	0.148585
9013.	12.1526	0.144811
9131.	12.1497	0.141122
9250.	12.1469	0.137533
9371.	12.1441	0.134022
9494.	12.1414	0.130587
9618.	12.1386	0.127254
9743.	12.1360	0.124018
9897.57	12.1328	0.120181
10054.6	12.1297	0.116460
10214.1	12.1266	0.112850
10376.1	12.1236	0.109348
10540.7	12.1206	0.105952
10708.0	12.1177	0.102658
10877.8	12.1149	0.994624E-01
11050.4	12.1121	0.963636E-01
11225.7	12.1093	0.933582E-01
11403.8	12.1066	0.904435E-01
11584.7	12.1040	0.876169E-01
11768.5	12.1014	0.848758E-01
11955.2	12.0988	0.822176E-01
12144.9	12.0964	0.796400E-01
12337.5	12.0939	0.771405E-01
12533.2	12.0915	0.747169E-01
12732.1	12.0892	0.723669E-01
12934.1	12.0869	0.700883E-01
13139.3	12.0846	0.678791E-01
13347.7	12.0824	0.657371E-01
13559.4	12.0803	0.636604E-01
13774.6	12.0781	0.616471E-01
13993.1	12.0761	0.596953E-01
14215.1	12.0740	0.578030E-01
14440.6	12.0720	0.559687E-01
14669.7	12.0701	0.541905E-01
14902.4	12.0682	0.524668E-01
15138.8	12.0663	0.507959E-01
15379.0	12.0645	0.491762E-01
15623.0	12.0627	0.476063E-01
15870.8	12.0610	0.460846E-01
16122.6	12.0593	0.446098E-01
16378.4	12.0576	0.431803E-01
16638.2	12.0560	0.417948E-01
16902.1	12.0544	0.404521E-01
17170.3	12.0528	0.391507E-01
17442.7	12.0513	0.378896E-01
17719.4	12.0498	0.366674E-01
18000.5	12.0483	0.354830E-01
18286.1	12.0469	0.343353E-01
18576.1	12.0455	0.332231E-01
18870.8	12.0441	0.321453E-01
19170.2	12.0427	0.311010E-01
19474.3	12.0414	0.300891E-01
19783.3	12.0402	0.291087E-01
20097.1	12.0389	0.281616E-01
20416.0	12.0377	0.272417E-01
20739.8	12.0365	0.263512E-01
21068.9	12.0353	0.254891E-01
21403.1	12.0342	0.246546E-01
21742.7	12.0331	0.238467E-01
22087.6	12.0320	0.230647E-01
22438.0	12.0309	0.223077E-01
22793.9	12.0299	0.215749E-01
23155.6	12.0288	0.208656E-01
23522.9	12.0278	0.201790E-01
23896.1	12.0269	0.195144E-01
24275.2	12.0259	0.188712E-01
24660.3	12.0250	0.182486E-01
25051.5	12.0241	0.176460E-01
25448.9	12.0232	0.170628E-01
25852.6	12.0224	0.164983E-01
26262.8	12.0215	0.159520E-01
26679.4	12.0207	0.154233E-01
27102.7	12.0199	0.149116E-01
27532.6	12.0191	0.144165E-01
27969.4	12.0184	0.139373E-01
28413.1	12.0176	0.134736E-01
28863.9	12.0169	0.130248E-01
29321.8	12.0162	0.125906E-01
29787.0	12.0155	0.121704E-01
30000.0	12.0152	0.119846E-01
